File: Röntgen/KEN008_XRD_40_85deg.xy
40.02000 68.0
40.06000 89.0
40.10000 73.0
40.14000 91.0
40.18000 101.0
40.22000 92.0
40.26000 79.0
40.30000 106.0
40.34000 127.0
40.38000 144.0
40.42000 257.0
40.46000 1079.0
40.50000 2731.0
40.54000 1385.0
40.58000 330.0
40.62000 220.0
40.66000 137.0
40.70000 123.0
40.74000 121.0
40.78000 121.0
40.82000 102.0
40.86000 113.0
40.90000 100.0
40.94000 110.0
40.98000 113.0
41.02000 93.0
41.06000 91.0
41.10000 109.0
41.14000 115.0
41.18000 100.0
41.22000 107.0
41.26000 105.0
41.30000 106.0
41.34000 106.0
41.38000 124.0
41.42000 113.0
41.46000 114.0
41.50000 126.0
41.54000 122.0
41.58000 136.0
41.62000 108.0
41.66000 125.0
41.70000 123.0
41.74000 133.0
41.78000 142.0
41.82000 122.0
41.86000 142.0
41.90000 131.0
41.94000 143.0
41.98000 134.0
42.02000 142.0
42.06000 156.0
42.10000 144.0
42.14000 154.0
42.18000 138.0
42.22000 119.0
42.26000 134.0
42.30000 160.0
42.34000 151.0
42.38000 150.0
42.42000 180.0
42.46000 159.0
42.50000 190.0
42.54000 203.0
42.58000 171.0
42.62000 240.0
42.66000 216.0
42.70000 224.0
42.74000 260.0
42.78000 284.0
42.82000 287.0
42.86000 321.0
42.90000 400.0
42.94000 588.0
42.98000 1017.0
43.02000 2993.0
43.06000 6164.0
43.10000 3361.0
43.14000 1209.0
43.18000 836.0
43.22000 521.0
43.26000 453.0
43.30000 447.0
43.34000 665.0
43.38000 1275.0
43.42000 1268.0
43.46000 759.0
43.50000 595.0
43.54000 544.0
43.58000 542.0
43.62000 513.0
43.66000 578.0
43.70000 543.0
43.74000 661.0
43.78000 819.0
43.82000 824.0
43.86000 846.0
43.90000 906.0
43.94000 953.0
43.98000 1079.0
44.02000 1135.0
44.06000 1154.0
44.10000 1312.0
44.14000 1411.0
44.18000 1553.0
44.22000 1683.0
44.26000 1839.0
44.30000 1955.0
44.34000 2228.0
44.38000 2576.0
44.42000 2737.0
44.46000 3028.0
44.50000 3573.0
44.54000 3927.0
44.58000 4471.0
44.62000 5189.0
44.66000 6160.0
44.70000 7148.0
44.74000 10193.0
44.78000 17504.0
44.82000 25458.0
44.86000 28355.0
44.90000 39691.0
44.94000 92091.0
44.98000 675180.0
45.02000 1968588.0
45.06000 718299.0
45.10000 484906.0
45.14000 985069.0
45.18000 342244.0
45.22000 52002.0
45.26000 25680.0
45.30000 17040.0
45.34000 12526.0
45.38000 10276.0
45.42000 8471.0
45.46000 7030.0
45.50000 6345.0
45.54000 5884.0
45.58000 5487.0
45.62000 4998.0
45.66000 4551.0
45.70000 4178.0
45.74000 3842.0
45.78000 3635.0
45.82000 3267.0
45.86000 2887.0
45.90000 2665.0
45.94000 2554.0
45.98000 2449.0
46.02000 2155.0
46.06000 2019.0
46.10000 1831.0
46.14000 1743.0
46.18000 1553.0
46.22000 1484.0
46.26000 1332.0
46.30000 1192.0
46.34000 1115.0
46.38000 1045.0
46.42000 959.0
46.46000 863.0
46.50000 877.0
46.54000 755.0
46.58000 716.0
46.62000 654.0
46.66000 601.0
46.70000 589.0
46.74000 556.0
46.78000 522.0
46.82000 504.0
46.86000 483.0
46.90000 468.0
46.94000 456.0
46.98000 435.0
47.02000 371.0
47.06000 402.0
47.10000 388.0
47.14000 365.0
47.18000 350.0
47.22000 308.0
47.26000 299.0
47.30000 325.0
47.34000 301.0
47.38000 293.0
47.42000 254.0
47.46000 271.0
47.50000 235.0
47.54000 218.0
47.58000 227.0
47.62000 237.0
47.66000 203.0
47.70000 240.0
47.74000 224.0
47.78000 195.0
47.82000 210.0
47.86000 201.0
47.90000 221.0
47.94000 175.0
47.98000 174.0
48.02000 179.0
48.06000 187.0
48.10000 183.0
48.14000 165.0
48.18000 168.0
48.22000 155.0
48.26000 171.0
48.30000 185.0
48.34000 166.0
48.38000 198.0
48.42000 255.0
48.46000 252.0
48.50000 186.0
48.54000 251.0
48.58000 215.0
48.62000 214.0
48.66000 200.0
48.70000 177.0
48.74000 162.0
48.78000 176.0
48.82000 156.0
48.86000 167.0
48.90000 144.0
48.94000 144.0
48.98000 135.0
49.02000 195.0
49.06000 180.0
49.10000 173.0
49.14000 172.0
49.18000 128.0
49.22000 171.0
49.26000 137.0
49.30000 167.0
49.34000 124.0
49.38000 141.0
49.42000 108.0
49.46000 119.0
49.50000 125.0
49.54000 107.0
49.58000 139.0
49.62000 127.0
49.66000 108.0
49.70000 99.0
49.74000 103.0
49.78000 108.0
49.82000 104.0
49.86000 108.0
49.90000 110.0
49.94000 111.0
49.98000 89.0
50.02000 97.0
50.06000 92.0
50.10000 92.0
50.14000 94.0
50.18000 97.0
50.22000 75.0
50.26000 103.0
50.30000 93.0
50.34000 97.0
50.38000 94.0
50.42000 96.0
50.46000 101.0
50.50000 98.0
50.54000 96.0
50.58000 82.0
50.62000 78.0
50.66000 83.0
50.70000 105.0
50.74000 73.0
50.78000 84.0
50.82000 84.0
50.86000 83.0
50.90000 93.0
50.94000 92.0
50.98000 96.0
51.02000 100.0
51.06000 90.0
51.10000 94.0
51.14000 80.0
51.18000 81.0
51.22000 73.0
51.26000 75.0
51.30000 78.0
51.34000 90.0
51.38000 92.0
51.42000 78.0
51.46000 97.0
51.50000 96.0
51.54000 82.0
51.58000 80.0
51.62000 79.0
51.66000 77.0
51.70000 64.0
51.74000 79.0
51.78000 87.0
51.82000 84.0
51.86000 73.0
51.90000 85.0
51.94000 64.0
51.98000 66.0
52.02000 79.0
52.06000 75.0
52.10000 72.0
52.14000 70.0
52.18000 72.0
52.22000 78.0
52.26000 70.0
52.30000 70.0
52.34000 81.0
52.38000 63.0
52.42000 67.0
52.46000 67.0
52.50000 64.0
52.54000 56.0
52.58000 74.0
52.62000 73.0
52.66000 53.0
52.70000 56.0
52.74000 67.0
52.78000 62.0
52.82000 58.0
52.86000 65.0
52.90000 53.0
52.94000 61.0
52.98000 64.0
53.02000 60.0
53.06000 70.0
53.10000 78.0
53.14000 65.0
53.18000 50.0
53.22000 56.0
53.26000 59.0
53.30000 56.0
53.34000 60.0
53.38000 67.0
53.42000 45.0
53.46000 61.0
53.50000 53.0
53.54000 49.0
53.58000 66.0
53.62000 50.0
53.66000 63.0
53.70000 58.0
53.74000 69.0
53.78000 59.0
53.82000 46.0
53.86000 51.0
53.90000 49.0
53.94000 37.0
53.98000 52.0
54.02000 52.0
54.06000 58.0
54.10000 50.0
54.14000 48.0
54.18000 46.0
54.22000 58.0
54.26000 49.0
54.30000 52.0
54.34000 54.0
54.38000 54.0
54.42000 50.0
54.46000 50.0
54.50000 64.0
54.54000 50.0
54.58000 53.0
54.62000 62.0
54.66000 56.0
54.70000 59.0
54.74000 45.0
54.78000 40.0
54.82000 36.0
54.86000 47.0
54.90000 36.0
54.94000 40.0
54.98000 48.0
55.02000 50.0
55.06000 58.0
55.10000 42.0
55.14000 40.0
55.18000 51.0
55.22000 45.0
55.26000 49.0
55.30000 41.0
55.34000 45.0
55.38000 48.0
55.42000 46.0
55.46000 39.0
55.50000 50.0
55.54000 38.0
55.58000 47.0
55.62000 46.0
55.66000 55.0
55.70000 49.0
55.74000 42.0
55.78000 42.0
55.82000 31.0
55.86000 45.0
55.90000 49.0
55.94000 45.0
55.98000 39.0
56.02000 47.0
56.06000 42.0
56.10000 46.0
56.14000 54.0
56.18000 42.0
56.22000 53.0
56.26000 40.0
56.30000 40.0
56.34000 34.0
56.38000 42.0
56.42000 37.0
56.46000 58.0
56.50000 40.0
56.54000 34.0
56.58000 51.0
56.62000 42.0
56.66000 46.0
56.70000 42.0
56.74000 53.0
56.78000 47.0
56.82000 49.0
56.86000 47.0
56.90000 60.0
56.94000 46.0
56.98000 38.0
57.02000 40.0
57.06000 56.0
57.10000 47.0
57.14000 44.0
57.18000 35.0
57.22000 38.0
57.26000 50.0
57.30000 42.0
57.34000 44.0
57.38000 48.0
57.42000 50.0
57.46000 50.0
57.50000 47.0
57.54000 46.0
57.58000 57.0
57.62000 52.0
57.66000 53.0
57.70000 45.0
57.74000 68.0
57.78000 68.0
57.82000 74.0
57.86000 62.0
57.90000 83.0
57.94000 121.0
57.98000 160.0
58.02000 148.0
58.06000 146.0
58.10000 127.0
58.14000 100.0
58.18000 78.0
58.22000 91.0
58.26000 75.0
58.30000 64.0
58.34000 65.0
58.38000 51.0
58.42000 44.0
58.46000 60.0
58.50000 44.0
58.54000 46.0
58.58000 56.0
58.62000 51.0
58.66000 49.0
58.70000 54.0
58.74000 59.0
58.78000 49.0
58.82000 43.0
58.86000 51.0
58.90000 45.0
58.94000 58.0
58.98000 44.0
59.02000 51.0
59.06000 48.0
59.10000 54.0
59.14000 58.0
59.18000 45.0
59.22000 56.0
59.26000 66.0
59.30000 40.0
59.34000 33.0
59.38000 67.0
59.42000 51.0
59.46000 60.0
59.50000 34.0
59.54000 50.0
59.58000 52.0
59.62000 59.0
59.66000 40.0
59.70000 41.0
59.74000 60.0
59.78000 50.0
59.82000 49.0
59.86000 55.0
59.90000 55.0
59.94000 45.0
59.98000 49.0
60.02000 53.0
60.06000 46.0
60.10000 53.0
60.14000 55.0
60.18000 52.0
60.22000 62.0
60.26000 35.0
60.30000 52.0
60.34000 56.0
60.38000 63.0
60.42000 56.0
60.46000 52.0
60.50000 53.0
60.54000 37.0
60.58000 73.0
60.62000 52.0
60.66000 51.0
60.70000 64.0
60.74000 68.0
60.78000 60.0
60.82000 58.0
60.86000 52.0
60.90000 67.0
60.94000 64.0
60.98000 61.0
61.02000 48.0
61.06000 56.0
61.10000 73.0
61.14000 70.0
61.18000 64.0
61.22000 66.0
61.26000 70.0
61.30000 56.0
61.34000 74.0
61.38000 75.0
61.42000 87.0
61.46000 82.0
61.50000 86.0
61.54000 107.0
61.58000 88.0
61.62000 85.0
61.66000 112.0
61.70000 127.0
61.74000 167.0
61.78000 192.0
61.82000 259.0
61.86000 319.0
61.90000 334.0
61.94000 339.0
61.98000 326.0
62.02000 254.0
62.06000 200.0
62.10000 186.0
62.14000 127.0
62.18000 138.0
62.22000 146.0
62.26000 121.0
62.30000 121.0
62.34000 132.0
62.38000 153.0
62.42000 156.0
62.46000 128.0
62.50000 144.0
62.54000 136.0
62.58000 138.0
62.62000 116.0
62.66000 129.0
62.70000 123.0
62.74000 123.0
62.78000 111.0
62.82000 122.0
62.86000 148.0
62.90000 141.0
62.94000 130.0
62.98000 138.0
63.02000 153.0
63.06000 148.0
63.10000 163.0
63.14000 162.0
63.18000 175.0
63.22000 176.0
63.26000 166.0
63.30000 181.0
63.34000 210.0
63.38000 170.0
63.42000 190.0
63.46000 237.0
63.50000 244.0
63.54000 253.0
63.58000 259.0
63.62000 281.0
63.66000 294.0
63.70000 264.0
63.74000 337.0
63.78000 334.0
63.82000 321.0
63.86000 324.0
63.90000 396.0
63.94000 442.0
63.98000 427.0
64.02000 461.0
64.06000 566.0
64.10000 619.0
64.14000 588.0
64.18000 683.0
64.22000 833.0
64.26000 847.0
64.30000 933.0
64.34000 1217.0
64.38000 1538.0
64.42000 1707.0
64.46000 2039.0
64.50000 2924.0
64.54000 3696.0
64.58000 4702.0
64.62000 6498.0
64.66000 9293.0
64.70000 12703.0
64.74000 17511.0
64.78000 28622.0
64.82000 48101.0
64.86000 69096.0
64.90000 79597.0
64.94000 74276.0
64.98000 62382.0
65.02000 53647.0
65.06000 51168.0
65.10000 46596.0
65.14000 34976.0
65.18000 21315.0
65.22000 12108.0
65.26000 7604.0
65.30000 5503.0
65.34000 3870.0
65.38000 2765.0
65.42000 2312.0
65.46000 1961.0
65.50000 1589.0
65.54000 1330.0
65.58000 1303.0
65.62000 1105.0
65.66000 981.0
65.70000 903.0
65.74000 861.0
65.78000 797.0
65.82000 715.0
65.86000 655.0
65.90000 683.0
65.94000 582.0
65.98000 565.0
66.02000 536.0
66.06000 543.0
66.10000 499.0
66.14000 457.0
66.18000 415.0
66.22000 457.0
66.26000 410.0
66.30000 388.0
66.34000 385.0
66.38000 362.0
66.42000 306.0
66.46000 329.0
66.50000 336.0
66.54000 307.0
66.58000 294.0
66.62000 317.0
66.66000 308.0
66.70000 262.0
66.74000 256.0
66.78000 250.0
66.82000 230.0
66.86000 218.0
66.90000 217.0
66.94000 207.0
66.98000 205.0
67.02000 215.0
67.06000 207.0
67.10000 188.0
67.14000 156.0
67.18000 173.0
67.22000 168.0
67.26000 162.0
67.30000 139.0
67.34000 164.0
67.38000 166.0
67.42000 131.0
67.46000 138.0
67.50000 144.0
67.54000 129.0
67.58000 122.0
67.62000 110.0
67.66000 117.0
67.70000 100.0
67.74000 102.0
67.78000 80.0
67.82000 102.0
67.86000 69.0
67.90000 86.0
67.94000 89.0
67.98000 79.0
68.02000 76.0
68.06000 79.0
68.10000 67.0
68.14000 70.0
68.18000 74.0
68.22000 77.0
68.26000 75.0
68.30000 89.0
68.34000 63.0
68.38000 58.0
68.42000 59.0
68.46000 79.0
68.50000 57.0
68.54000 57.0
68.58000 70.0
68.62000 58.0
68.66000 59.0
68.70000 59.0
68.74000 62.0
68.78000 40.0
68.82000 57.0
68.86000 52.0
68.90000 45.0
68.94000 50.0
68.98000 44.0
69.02000 52.0
69.06000 55.0
69.10000 40.0
69.14000 47.0
69.18000 52.0
69.22000 48.0
69.26000 48.0
69.30000 52.0
69.34000 56.0
69.38000 40.0
69.42000 47.0
69.46000 44.0
69.50000 44.0
69.54000 41.0
69.58000 37.0
69.62000 42.0
69.66000 66.0
69.70000 43.0
69.74000 44.0
69.78000 55.0
69.82000 66.0
69.86000 86.0
69.90000 365.0
69.94000 1018.0
69.98000 656.0
70.02000 184.0
70.06000 112.0
70.10000 126.0
70.14000 258.0
70.18000 167.0
70.22000 67.0
70.26000 64.0
70.30000 56.0
70.34000 52.0
70.38000 46.0
70.42000 60.0
70.46000 50.0
70.50000 58.0
70.54000 59.0
70.58000 48.0
70.62000 38.0
70.66000 39.0
70.70000 48.0
70.74000 35.0
70.78000 35.0
70.82000 34.0
70.86000 42.0
70.90000 50.0
70.94000 42.0
70.98000 33.0
71.02000 30.0
71.06000 38.0
71.10000 34.0
71.14000 24.0
71.18000 37.0
71.22000 41.0
71.26000 46.0
71.30000 36.0
71.34000 32.0
71.38000 39.0
71.42000 35.0
71.46000 25.0
71.50000 41.0
71.54000 40.0
71.58000 33.0
71.62000 32.0
71.66000 36.0
71.70000 26.0
71.74000 30.0
71.78000 39.0
71.82000 32.0
71.86000 34.0
71.90000 40.0
71.94000 38.0
71.98000 31.0
72.02000 34.0
72.06000 30.0
72.10000 43.0
72.14000 31.0
72.18000 32.0
72.22000 28.0
72.26000 29.0
72.30000 37.0
72.34000 29.0
72.38000 46.0
72.42000 28.0
72.46000 38.0
72.50000 25.0
72.54000 39.0
72.58000 31.0
72.62000 29.0
72.66000 30.0
72.70000 47.0
72.74000 41.0
72.78000 37.0
72.82000 40.0
72.86000 39.0
72.90000 27.0
72.94000 43.0
72.98000 35.0
73.02000 28.0
73.06000 43.0
73.10000 24.0
73.14000 50.0
73.18000 36.0
73.22000 33.0
73.26000 38.0
73.30000 36.0
73.34000 32.0
73.38000 32.0
73.42000 35.0
73.46000 30.0
73.50000 25.0
73.54000 22.0
73.58000 30.0
73.62000 28.0
73.66000 26.0
73.70000 38.0
73.74000 31.0
73.78000 24.0
73.82000 31.0
73.86000 32.0
73.90000 30.0
73.94000 34.0
73.98000 37.0
74.02000 29.0
74.06000 28.0
74.10000 46.0
74.14000 28.0
74.18000 33.0
74.22000 31.0
74.26000 29.0
74.30000 38.0
74.34000 29.0
74.38000 32.0
74.42000 27.0
74.46000 38.0
74.50000 31.0
74.54000 37.0
74.58000 28.0
74.62000 22.0
74.66000 26.0
74.70000 24.0
74.74000 32.0
74.78000 35.0
74.82000 21.0
74.86000 42.0
74.90000 26.0
74.94000 35.0
74.98000 29.0
75.02000 32.0
75.06000 35.0
75.10000 34.0
75.14000 36.0
75.18000 35.0
75.22000 39.0
75.26000 21.0
75.30000 25.0
75.34000 27.0
75.38000 34.0
75.42000 27.0
75.46000 28.0
75.50000 26.0
75.54000 29.0
75.58000 26.0
75.62000 20.0
75.66000 35.0
75.70000 29.0
75.74000 45.0
75.78000 32.0
75.82000 27.0
75.86000 26.0
75.90000 28.0
75.94000 25.0
75.98000 31.0
76.02000 33.0
76.06000 25.0
76.10000 28.0
76.14000 26.0
76.18000 25.0
76.22000 36.0
76.26000 40.0
76.30000 22.0
76.34000 20.0
76.38000 22.0
76.42000 29.0
76.46000 28.0
76.50000 28.0
76.54000 22.0
76.58000 27.0
76.62000 26.0
76.66000 28.0
76.70000 21.0
76.74000 25.0
76.78000 34.0
76.82000 32.0
76.86000 31.0
76.90000 35.0
76.94000 29.0
76.98000 31.0
77.02000 17.0
77.06000 37.0
77.10000 15.0
77.14000 27.0
77.18000 28.0
77.22000 30.0
77.26000 24.0
77.30000 27.0
77.34000 26.0
77.38000 28.0
77.42000 29.0
77.46000 27.0
77.50000 37.0
77.54000 35.0
77.58000 37.0
77.62000 36.0
77.66000 33.0
77.70000 22.0
77.74000 33.0
77.78000 28.0
77.82000 28.0
77.86000 24.0
77.90000 26.0
77.94000 31.0
77.98000 33.0
78.02000 34.0
78.06000 24.0
78.10000 27.0
78.14000 28.0
78.18000 25.0
78.22000 24.0
78.26000 41.0
78.30000 31.0
78.34000 25.0
78.38000 34.0
78.42000 25.0
78.46000 26.0
78.50000 31.0
78.54000 33.0
78.58000 42.0
78.62000 26.0
78.66000 29.0
78.70000 36.0
78.74000 34.0
78.78000 32.0
78.82000 31.0
78.86000 26.0
78.90000 38.0
78.94000 31.0
78.98000 32.0
79.02000 24.0
79.06000 26.0
79.10000 32.0
79.14000 18.0
79.18000 25.0
79.22000 39.0
79.26000 24.0
79.30000 27.0
79.34000 33.0
79.38000 34.0
79.42000 25.0
79.46000 27.0
79.50000 29.0
79.54000 21.0
79.58000 34.0
79.62000 30.0
79.66000 32.0
79.70000 23.0
79.74000 40.0
79.78000 32.0
79.82000 27.0
79.86000 29.0
79.90000 20.0
79.94000 34.0
79.98000 30.0
80.02000 24.0
80.06000 29.0
80.10000 33.0
80.14000 20.0
80.18000 28.0
80.22000 26.0
80.26000 25.0
80.30000 36.0
80.34000 40.0
80.38000 31.0
80.42000 25.0
80.46000 33.0
80.50000 29.0
80.54000 22.0
80.58000 34.0
80.62000 19.0
80.66000 30.0
80.70000 23.0
80.74000 31.0
80.78000 22.0
80.82000 21.0
80.86000 30.0
80.90000 22.0
80.94000 21.0
80.98000 31.0
81.02000 27.0
81.06000 37.0
81.10000 34.0
81.14000 23.0
81.18000 23.0
81.22000 18.0
81.26000 24.0
81.30000 32.0
81.34000 30.0
81.38000 23.0
81.42000 37.0
81.46000 32.0
81.50000 29.0
81.54000 21.0
81.58000 36.0
81.62000 28.0
81.66000 30.0
81.70000 20.0
81.74000 29.0
81.78000 24.0
81.82000 23.0
81.86000 23.0
81.90000 24.0
81.94000 29.0
81.98000 32.0
82.02000 29.0
82.06000 32.0
82.10000 30.0
82.14000 25.0
82.18000 28.0
82.22000 36.0
82.26000 25.0
82.30000 25.0
82.34000 31.0
82.38000 25.0
82.42000 31.0
82.46000 29.0
82.50000 22.0
82.54000 27.0
82.58000 25.0
82.62000 30.0
82.66000 25.0
82.70000 26.0
82.74000 31.0
82.78000 26.0
82.82000 21.0
82.86000 33.0
82.90000 21.0
82.94000 24.0
82.98000 28.0
83.02000 28.0
83.06000 25.0
83.10000 27.0
83.14000 28.0
83.18000 23.0
83.22000 17.0
83.26000 25.0
83.30000 30.0
83.34000 24.0
83.38000 26.0
83.42000 21.0
83.46000 32.0
83.50000 28.0
83.54000 40.0
83.58000 23.0
83.62000 28.0
83.66000 22.0
83.70000 34.0
83.74000 27.0
83.78000 28.0
83.82000 20.0
83.86000 29.0
83.90000 34.0
83.94000 33.0
83.98000 26.0
84.02000 32.0
84.06000 30.0
84.10000 22.0
84.14000 36.0
84.18000 22.0
84.22000 27.0
84.26000 25.0
84.30000 34.0
84.34000 23.0
84.38000 29.0
84.42000 39.0
84.46000 27.0
84.50000 26.0
84.54000 38.0
84.58000 24.0
84.62000 24.0
84.66000 35.0
84.70000 36.0
84.74000 27.0
84.78000 15.0
84.82000 39.0
84.86000 30.0
84.90000 27.0
84.94000 29.0
84.98000 23.0