File: Röntgen/KEN009_XRD_40_85deg.xy
40.02000 45.0
40.06000 47.0
40.10000 35.0
40.14000 53.0
40.18000 53.0
40.22000 51.0
40.26000 30.0
40.30000 53.0
40.34000 53.0
40.38000 40.0
40.42000 37.0
40.46000 45.0
40.50000 46.0
40.54000 40.0
40.58000 49.0
40.62000 44.0
40.66000 44.0
40.70000 48.0
40.74000 39.0
40.78000 41.0
40.82000 40.0
40.86000 37.0
40.90000 57.0
40.94000 48.0
40.98000 32.0
41.02000 33.0
41.06000 42.0
41.10000 47.0
41.14000 31.0
41.18000 42.0
41.22000 53.0
41.26000 38.0
41.30000 44.0
41.34000 38.0
41.38000 49.0
41.42000 36.0
41.46000 37.0
41.50000 41.0
41.54000 30.0
41.58000 48.0
41.62000 46.0
41.66000 36.0
41.70000 44.0
41.74000 36.0
41.78000 41.0
41.82000 38.0
41.86000 36.0
41.90000 42.0
41.94000 44.0
41.98000 37.0
42.02000 42.0
42.06000 38.0
42.10000 43.0
42.14000 51.0
42.18000 37.0
42.22000 39.0
42.26000 39.0
42.30000 47.0
42.34000 41.0
42.38000 53.0
42.42000 36.0
42.46000 35.0
42.50000 48.0
42.54000 51.0
42.58000 48.0
42.62000 43.0
42.66000 35.0
42.70000 46.0
42.74000 38.0
42.78000 40.0
42.82000 33.0
42.86000 41.0
42.90000 39.0
42.94000 44.0
42.98000 35.0
43.02000 50.0
43.06000 34.0
43.10000 39.0
43.14000 47.0
43.18000 43.0
43.22000 35.0
43.26000 36.0
43.30000 47.0
43.34000 41.0
43.38000 34.0
43.42000 38.0
43.46000 37.0
43.50000 46.0
43.54000 37.0
43.58000 46.0
43.62000 51.0
43.66000 38.0
43.70000 32.0
43.74000 45.0
43.78000 30.0
43.82000 42.0
43.86000 50.0
43.90000 38.0
43.94000 27.0
43.98000 53.0
44.02000 30.0
44.06000 41.0
44.10000 44.0
44.14000 41.0
44.18000 53.0
44.22000 45.0
44.26000 50.0
44.30000 42.0
44.34000 56.0
44.38000 64.0
44.42000 62.0
44.46000 79.0
44.50000 96.0
44.54000 126.0
44.58000 123.0
44.62000 137.0
44.66000 146.0
44.70000 158.0
44.74000 139.0
44.78000 165.0
44.82000 133.0
44.86000 116.0
44.90000 102.0
44.94000 82.0
44.98000 85.0
45.02000 56.0
45.06000 53.0
45.10000 62.0
45.14000 50.0
45.18000 51.0
45.22000 48.0
45.26000 40.0
45.30000 40.0
45.34000 41.0
45.38000 48.0
45.42000 43.0
45.46000 47.0
45.50000 45.0
45.54000 40.0
45.58000 31.0
45.62000 37.0
45.66000 28.0
45.70000 34.0
45.74000 37.0
45.78000 40.0
45.82000 36.0
45.86000 47.0
45.90000 40.0
45.94000 29.0
45.98000 31.0
46.02000 33.0
46.06000 28.0
46.10000 37.0
46.14000 42.0
46.18000 44.0
46.22000 49.0
46.26000 37.0
46.30000 28.0
46.34000 29.0
46.38000 40.0
46.42000 51.0
46.46000 35.0
46.50000 40.0
46.54000 30.0
46.58000 27.0
46.62000 25.0
46.66000 33.0
46.70000 34.0
46.74000 28.0
46.78000 41.0
46.82000 38.0
46.86000 37.0
46.90000 43.0
46.94000 41.0
46.98000 46.0
47.02000 43.0
47.06000 35.0
47.10000 33.0
47.14000 39.0
47.18000 22.0
47.22000 39.0
47.26000 36.0
47.30000 43.0
47.34000 38.0
47.38000 25.0
47.42000 37.0
47.46000 30.0
47.50000 42.0
47.54000 25.0
47.58000 28.0
47.62000 34.0
47.66000 33.0
47.70000 32.0
47.74000 34.0
47.78000 46.0
47.82000 39.0
47.86000 28.0
47.90000 29.0
47.94000 32.0
47.98000 34.0
48.02000 38.0
48.06000 41.0
48.10000 22.0
48.14000 26.0
48.18000 44.0
48.22000 31.0
48.26000 36.0
48.30000 39.0
48.34000 29.0
48.38000 38.0
48.42000 26.0
48.46000 35.0
48.50000 31.0
48.54000 36.0
48.58000 35.0
48.62000 25.0
48.66000 39.0
48.70000 40.0
48.74000 36.0
48.78000 32.0
48.82000 35.0
48.86000 37.0
48.90000 41.0
48.94000 51.0
48.98000 29.0
49.02000 33.0
49.06000 34.0
49.10000 35.0
49.14000 24.0
49.18000 41.0
49.22000 35.0
49.26000 44.0
49.30000 47.0
49.34000 35.0
49.38000 29.0
49.42000 30.0
49.46000 32.0
49.50000 24.0
49.54000 34.0
49.58000 34.0
49.62000 37.0
49.66000 27.0
49.70000 36.0
49.74000 26.0
49.78000 25.0
49.82000 28.0
49.86000 26.0
49.90000 36.0
49.94000 33.0
49.98000 26.0
50.02000 30.0
50.06000 34.0
50.10000 42.0
50.14000 37.0
50.18000 30.0
50.22000 28.0
50.26000 25.0
50.30000 45.0
50.34000 37.0
50.38000 41.0
50.42000 24.0
50.46000 40.0
50.50000 38.0
50.54000 31.0
50.58000 41.0
50.62000 34.0
50.66000 26.0
50.70000 36.0
50.74000 28.0
50.78000 31.0
50.82000 32.0
50.86000 33.0
50.90000 37.0
50.94000 36.0
50.98000 37.0
51.02000 27.0
51.06000 30.0
51.10000 29.0
51.14000 29.0
51.18000 36.0
51.22000 42.0
51.26000 36.0
51.30000 33.0
51.34000 31.0
51.38000 45.0
51.42000 36.0
51.46000 28.0
51.50000 37.0
51.54000 32.0
51.58000 31.0
51.62000 31.0
51.66000 37.0
51.70000 23.0
51.74000 29.0
51.78000 40.0
51.82000 39.0
51.86000 34.0
51.90000 29.0
51.94000 25.0
51.98000 29.0
52.02000 42.0
52.06000 28.0
52.10000 29.0
52.14000 27.0
52.18000 42.0
52.22000 32.0
52.26000 38.0
52.30000 30.0
52.34000 31.0
52.38000 37.0
52.42000 25.0
52.46000 37.0
52.50000 26.0
52.54000 28.0
52.58000 27.0
52.62000 27.0
52.66000 36.0
52.70000 28.0
52.74000 33.0
52.78000 28.0
52.82000 43.0
52.86000 30.0
52.90000 32.0
52.94000 33.0
52.98000 41.0
53.02000 35.0
53.06000 37.0
53.10000 44.0
53.14000 43.0
53.18000 37.0
53.22000 36.0
53.26000 30.0
53.30000 26.0
53.34000 35.0
53.38000 29.0
53.42000 29.0
53.46000 30.0
53.50000 41.0
53.54000 32.0
53.58000 29.0
53.62000 31.0
53.66000 36.0
53.70000 28.0
53.74000 39.0
53.78000 40.0
53.82000 34.0
53.86000 45.0
53.90000 36.0
53.94000 34.0
53.98000 25.0
54.02000 33.0
54.06000 41.0
54.10000 28.0
54.14000 34.0
54.18000 38.0
54.22000 40.0
54.26000 41.0
54.30000 27.0
54.34000 34.0
54.38000 29.0
54.42000 34.0
54.46000 46.0
54.50000 54.0
54.54000 42.0
54.58000 42.0
54.62000 46.0
54.66000 32.0
54.70000 43.0
54.74000 49.0
54.78000 43.0
54.82000 39.0
54.86000 46.0
54.90000 38.0
54.94000 40.0
54.98000 47.0
55.02000 79.0
55.06000 83.0
55.10000 55.0
55.14000 40.0
55.18000 43.0
55.22000 41.0
55.26000 34.0
55.30000 35.0
55.34000 36.0
55.38000 47.0
55.42000 36.0
55.46000 47.0
55.50000 44.0
55.54000 44.0
55.58000 30.0
55.62000 46.0
55.66000 22.0
55.70000 34.0
55.74000 51.0
55.78000 51.0
55.82000 60.0
55.86000 69.0
55.90000 48.0
55.94000 38.0
55.98000 44.0
56.02000 37.0
56.06000 31.0
56.10000 32.0
56.14000 44.0
56.18000 45.0
56.22000 50.0
56.26000 57.0
56.30000 92.0
56.34000 86.0
56.38000 63.0
56.42000 59.0
56.46000 53.0
56.50000 57.0
56.54000 63.0
56.58000 54.0
56.62000 78.0
56.66000 99.0
56.70000 209.0
56.74000 334.0
56.78000 261.0
56.82000 123.0
56.86000 57.0
56.90000 55.0
56.94000 56.0
56.98000 42.0
57.02000 57.0
57.06000 57.0
57.10000 54.0
57.14000 54.0
57.18000 56.0
57.22000 52.0
57.26000 44.0
57.30000 43.0
57.34000 44.0
57.38000 40.0
57.42000 41.0
57.46000 36.0
57.50000 46.0
57.54000 47.0
57.58000 52.0
57.62000 65.0
57.66000 75.0
57.70000 65.0
57.74000 49.0
57.78000 62.0
57.82000 40.0
57.86000 47.0
57.90000 41.0
57.94000 46.0
57.98000 45.0
58.02000 48.0
58.06000 41.0
58.10000 39.0
58.14000 40.0
58.18000 37.0
58.22000 38.0
58.26000 42.0
58.30000 43.0
58.34000 32.0
58.38000 54.0
58.42000 41.0
58.46000 41.0
58.50000 49.0
58.54000 42.0
58.58000 48.0
58.62000 47.0
58.66000 41.0
58.70000 37.0
58.74000 35.0
58.78000 42.0
58.82000 56.0
58.86000 42.0
58.90000 32.0
58.94000 26.0
58.98000 34.0
59.02000 36.0
59.06000 40.0
59.10000 35.0
59.14000 52.0
59.18000 39.0
59.22000 58.0
59.26000 32.0
59.30000 42.0
59.34000 51.0
59.38000 52.0
59.42000 39.0
59.46000 42.0
59.50000 50.0
59.54000 42.0
59.58000 39.0
59.62000 41.0
59.66000 48.0
59.70000 41.0
59.74000 38.0
59.78000 51.0
59.82000 48.0
59.86000 43.0
59.90000 52.0
59.94000 46.0
59.98000 41.0
60.02000 53.0
60.06000 46.0
60.10000 58.0
60.14000 40.0
60.18000 50.0
60.22000 51.0
60.26000 42.0
60.30000 38.0
60.34000 48.0
60.38000 44.0
60.42000 45.0
60.46000 40.0
60.50000 49.0
60.54000 44.0
60.58000 40.0
60.62000 58.0
60.66000 52.0
60.70000 52.0
60.74000 50.0
60.78000 58.0
60.82000 47.0
60.86000 51.0
60.90000 56.0
60.94000 50.0
60.98000 57.0
61.02000 62.0
61.06000 79.0
61.10000 71.0
61.14000 79.0
61.18000 81.0
61.22000 69.0
61.26000 80.0
61.30000 85.0
61.34000 68.0
61.38000 98.0
61.42000 108.0
61.46000 92.0
61.50000 113.0
61.54000 191.0
61.58000 395.0
61.62000 1050.0
61.66000 2445.0
61.70000 2184.0
61.74000 862.0
61.78000 393.0
61.82000 334.0
61.86000 444.0
61.90000 828.0
61.94000 938.0
61.98000 745.0
62.02000 424.0
62.06000 247.0
62.10000 173.0
62.14000 161.0
62.18000 182.0
62.22000 150.0
62.26000 119.0
62.30000 96.0
62.34000 96.0
62.38000 100.0
62.42000 100.0
62.46000 104.0
62.50000 104.0
62.54000 96.0
62.58000 101.0
62.62000 97.0
62.66000 82.0
62.70000 103.0
62.74000 98.0
62.78000 82.0
62.82000 99.0
62.86000 84.0
62.90000 95.0
62.94000 126.0
62.98000 124.0
63.02000 110.0
63.06000 111.0
63.10000 135.0
63.14000 102.0
63.18000 102.0
63.22000 121.0
63.26000 103.0
63.30000 121.0
63.34000 128.0
63.38000 115.0
63.42000 94.0
63.46000 126.0
63.50000 108.0
63.54000 107.0
63.58000 101.0
63.62000 107.0
63.66000 118.0
63.70000 106.0
63.74000 122.0
63.78000 117.0
63.82000 112.0
63.86000 122.0
63.90000 115.0
63.94000 107.0
63.98000 125.0
64.02000 98.0
64.06000 119.0
64.10000 111.0
64.14000 129.0
64.18000 134.0
64.22000 113.0
64.26000 134.0
64.30000 127.0
64.34000 117.0
64.38000 106.0
64.42000 125.0
64.46000 101.0
64.50000 128.0
64.54000 159.0
64.58000 117.0
64.62000 150.0
64.66000 120.0
64.70000 135.0
64.74000 163.0
64.78000 137.0
64.82000 144.0
64.86000 141.0
64.90000 143.0
64.94000 163.0
64.98000 157.0
65.02000 166.0
65.06000 166.0
65.10000 174.0
65.14000 173.0
65.18000 176.0
65.22000 174.0
65.26000 177.0
65.30000 178.0
65.34000 206.0
65.38000 195.0
65.42000 213.0
65.46000 213.0
65.50000 245.0
65.54000 242.0
65.58000 317.0
65.62000 327.0
65.66000 415.0
65.70000 564.0
65.74000 827.0
65.78000 1525.0
65.82000 3535.0
65.86000 6046.0
65.90000 5032.0
65.94000 3186.0
65.98000 2697.0
66.02000 1994.0
66.06000 1099.0
66.10000 809.0
66.14000 630.0
66.18000 513.0
66.22000 440.0
66.26000 449.0
66.30000 473.0
66.34000 583.0
66.38000 914.0
66.42000 1370.0
66.46000 1156.0
66.50000 833.0
66.54000 673.0
66.58000 545.0
66.62000 505.0
66.66000 468.0
66.70000 466.0
66.74000 439.0
66.78000 445.0
66.82000 427.0
66.86000 425.0
66.90000 429.0
66.94000 433.0
66.98000 569.0
67.02000 541.0
67.06000 670.0
67.10000 701.0
67.14000 654.0
67.18000 666.0
67.22000 659.0
67.26000 661.0
67.30000 689.0
67.34000 732.0
67.38000 772.0
67.42000 838.0
67.46000 864.0
67.50000 903.0
67.54000 965.0
67.58000 1022.0
67.62000 1052.0
67.66000 1105.0
67.70000 1127.0
67.74000 1193.0
67.78000 1230.0
67.82000 1273.0
67.86000 1438.0
67.90000 1473.0
67.94000 1490.0
67.98000 1595.0
68.02000 1624.0
68.06000 1832.0
68.10000 1913.0
68.14000 1979.0
68.18000 2103.0
68.22000 2324.0
68.26000 2304.0
68.30000 2549.0
68.34000 2732.0
68.38000 2954.0
68.42000 3064.0
68.46000 3531.0
68.50000 3932.0
68.54000 4297.0
68.58000 4849.0
68.62000 5554.0
68.66000 7193.0
68.70000 10297.0
68.74000 15513.0
68.78000 20362.0
68.82000 21683.0
68.86000 20866.0
68.90000 23638.0
68.94000 31886.0
68.98000 54422.0
69.02000 120759.0
69.06000 477242.0
69.10000 2005302.0
69.14000 1909465.0
69.18000 443782.0
69.22000 178646.0
69.26000 384576.0
69.30000 1081502.0
69.34000 843578.0
69.38000 210122.0
69.42000 66194.0
69.46000 37441.0
69.50000 25786.0
69.54000 19592.0
69.58000 15719.0
69.62000 12892.0
69.66000 10934.0
69.70000 9582.0
69.74000 8646.0
69.78000 7872.0
69.82000 6900.0
69.86000 6326.0
69.90000 5901.0
69.94000 5587.0
69.98000 5146.0
70.02000 5098.0
70.06000 4688.0
70.10000 4343.0
70.14000 4300.0
70.18000 3998.0
70.22000 3858.0
70.26000 3810.0
70.30000 3577.0
70.34000 3432.0
70.38000 2982.0
70.42000 2851.0
70.46000 2775.0
70.50000 2599.0
70.54000 2407.0
70.58000 2398.0
70.62000 2270.0
70.66000 2172.0
70.70000 2099.0
70.74000 2066.0
70.78000 1893.0
70.82000 1805.0
70.86000 1812.0
70.90000 1702.0
70.94000 1625.0
70.98000 1593.0
71.02000 1544.0
71.06000 1408.0
71.10000 1347.0
71.14000 1288.0
71.18000 1208.0
71.22000 1119.0
71.26000 1147.0
71.30000 1087.0
71.34000 1052.0
71.38000 949.0
71.42000 974.0
71.46000 904.0
71.50000 907.0
71.54000 774.0
71.58000 847.0
71.62000 731.0
71.66000 719.0
71.70000 654.0
71.74000 652.0
71.78000 661.0
71.82000 677.0
71.86000 566.0
71.90000 533.0
71.94000 511.0
71.98000 533.0
72.02000 464.0
72.06000 457.0
72.10000 438.0
72.14000 411.0
72.18000 398.0
72.22000 396.0
72.26000 407.0
72.30000 357.0
72.34000 378.0
72.38000 353.0
72.42000 391.0
72.46000 313.0
72.50000 318.0
72.54000 309.0
72.58000 269.0
72.62000 279.0
72.66000 327.0
72.70000 258.0
72.74000 222.0
72.78000 258.0
72.82000 249.0
72.86000 232.0
72.90000 235.0
72.94000 221.0
72.98000 203.0
73.02000 213.0
73.06000 205.0
73.10000 194.0
73.14000 195.0
73.18000 169.0
73.22000 185.0
73.26000 193.0
73.30000 170.0
73.34000 185.0
73.38000 155.0
73.42000 163.0
73.46000 146.0
73.50000 175.0
73.54000 148.0
73.58000 150.0
73.62000 151.0
73.66000 143.0
73.70000 158.0
73.74000 124.0
73.78000 117.0
73.82000 140.0
73.86000 132.0
73.90000 118.0
73.94000 117.0
73.98000 103.0
74.02000 103.0
74.06000 110.0
74.10000 105.0
74.14000 114.0
74.18000 90.0
74.22000 127.0
74.26000 106.0
74.30000 100.0
74.34000 96.0
74.38000 111.0
74.42000 96.0
74.46000 89.0
74.50000 94.0
74.54000 91.0
74.58000 96.0
74.62000 115.0
74.66000 88.0
74.70000 104.0
74.74000 99.0
74.78000 98.0
74.82000 95.0
74.86000 89.0
74.90000 85.0
74.94000 92.0
74.98000 106.0
75.02000 125.0
75.06000 140.0
75.10000 125.0
75.14000 102.0
75.18000 103.0
75.22000 169.0
75.26000 173.0
75.30000 123.0
75.34000 100.0
75.38000 74.0
75.42000 105.0
75.46000 110.0
75.50000 78.0
75.54000 77.0
75.58000 72.0
75.62000 67.0
75.66000 73.0
75.70000 74.0
75.74000 80.0
75.78000 80.0
75.82000 70.0
75.86000 85.0
75.90000 81.0
75.94000 72.0
75.98000 65.0
76.02000 77.0
76.06000 72.0
76.10000 77.0
76.14000 85.0
76.18000 82.0
76.22000 99.0
76.26000 101.0
76.30000 87.0
76.34000 84.0
76.38000 96.0
76.42000 63.0
76.46000 76.0
76.50000 59.0
76.54000 71.0
76.58000 69.0
76.62000 59.0
76.66000 43.0
76.70000 66.0
76.74000 64.0
76.78000 52.0
76.82000 53.0
76.86000 51.0
76.90000 49.0
76.94000 59.0
76.98000 40.0
77.02000 64.0
77.06000 39.0
77.10000 46.0
77.14000 40.0
77.18000 50.0
77.22000 46.0
77.26000 58.0
77.30000 46.0
77.34000 47.0
77.38000 45.0
77.42000 46.0
77.46000 43.0
77.50000 57.0
77.54000 53.0
77.58000 28.0
77.62000 53.0
77.66000 49.0
77.70000 41.0
77.74000 56.0
77.78000 44.0
77.82000 35.0
77.86000 34.0
77.90000 43.0
77.94000 55.0
77.98000 46.0
78.02000 41.0
78.06000 43.0
78.10000 48.0
78.14000 40.0
78.18000 42.0
78.22000 47.0
78.26000 40.0
78.30000 40.0
78.34000 43.0
78.38000 36.0
78.42000 50.0
78.46000 35.0
78.50000 33.0
78.54000 43.0
78.58000 36.0
78.62000 44.0
78.66000 41.0
78.70000 42.0
78.74000 39.0
78.78000 38.0
78.82000 26.0
78.86000 34.0
78.90000 43.0
78.94000 38.0
78.98000 40.0
79.02000 36.0
79.06000 34.0
79.10000 29.0
79.14000 48.0
79.18000 35.0
79.22000 30.0
79.26000 22.0
79.30000 31.0
79.34000 54.0
79.38000 35.0
79.42000 39.0
79.46000 34.0
79.50000 37.0
79.54000 35.0
79.58000 46.0
79.62000 40.0
79.66000 34.0
79.70000 40.0
79.74000 31.0
79.78000 24.0
79.82000 38.0
79.86000 24.0
79.90000 31.0
79.94000 38.0
79.98000 30.0
80.02000 30.0
80.06000 35.0
80.10000 30.0
80.14000 35.0
80.18000 30.0
80.22000 27.0
80.26000 32.0
80.30000 36.0
80.34000 41.0
80.38000 33.0
80.42000 29.0
80.46000 31.0
80.50000 23.0
80.54000 39.0
80.58000 28.0
80.62000 28.0
80.66000 33.0
80.70000 36.0
80.74000 36.0
80.78000 30.0
80.82000 43.0
80.86000 28.0
80.90000 43.0
80.94000 26.0
80.98000 29.0
81.02000 30.0
81.06000 36.0
81.10000 34.0
81.14000 33.0
81.18000 40.0
81.22000 23.0
81.26000 23.0
81.30000 25.0
81.34000 36.0
81.38000 24.0
81.42000 30.0
81.46000 32.0
81.50000 22.0
81.54000 40.0
81.58000 25.0
81.62000 29.0
81.66000 21.0
81.70000 35.0
81.74000 30.0
81.78000 27.0
81.82000 14.0
81.86000 21.0
81.90000 31.0
81.94000 28.0
81.98000 25.0
82.02000 33.0
82.06000 30.0
82.10000 25.0
82.14000 35.0
82.18000 35.0
82.22000 29.0
82.26000 38.0
82.30000 32.0
82.34000 34.0
82.38000 38.0
82.42000 32.0
82.46000 46.0
82.50000 33.0
82.54000 34.0
82.58000 43.0
82.62000 35.0
82.66000 28.0
82.70000 32.0
82.74000 24.0
82.78000 26.0
82.82000 32.0
82.86000 28.0
82.90000 23.0
82.94000 19.0
82.98000 29.0
83.02000 31.0
83.06000 19.0
83.10000 28.0
83.14000 30.0
83.18000 23.0
83.22000 34.0
83.26000 27.0
83.30000 25.0
83.34000 31.0
83.38000 30.0
83.42000 40.0
83.46000 26.0
83.50000 34.0
83.54000 27.0
83.58000 36.0
83.62000 26.0
83.66000 29.0
83.70000 23.0
83.74000 23.0
83.78000 23.0
83.82000 17.0
83.86000 13.0
83.90000 33.0
83.94000 25.0
83.98000 26.0
84.02000 25.0
84.06000 29.0
84.10000 26.0
84.14000 18.0
84.18000 25.0
84.22000 27.0
84.26000 23.0
84.30000 23.0
84.34000 25.0
84.38000 31.0
84.42000 22.0
84.46000 33.0
84.50000 29.0
84.54000 20.0
84.58000 35.0
84.62000 19.0
84.66000 31.0
84.70000 21.0
84.74000 17.0
84.78000 17.0
84.82000 35.0
84.86000 16.0
84.90000 6.0
84.94000 27.0
84.98000 20.0