File: Röntgen/KEN008_XRD_65deg_phi180.xy
-89.800 3.0
-89.600 2.0
-89.400 7.0
-89.200 5.0
-89.000 3.0
-88.800 2.0
-88.600 3.0
-88.400 2.0
-88.200 1.0
-88.000 4.0
-87.800 2.0
-87.600 2.0
-87.400 5.0
-87.200 3.0
-87.000 4.0
-86.800 4.0
-86.600 1.0
-86.400 0.0
-86.200 5.0
-86.000 1.0
-85.800 3.0
-85.600 1.0
-85.400 5.0
-85.200 5.0
-85.000 1.0
-84.800 4.0
-84.600 3.0
-84.400 4.0
-84.200 5.0
-84.000 4.0
-83.800 3.0
-83.600 4.0
-83.400 4.0
-83.200 4.0
-83.000 6.0
-82.800 5.0
-82.600 6.0
-82.400 5.0
-82.200 2.0
-82.000 4.0
-81.800 4.0
-81.600 1.0
-81.400 4.0
-81.200 4.0
-81.000 1.0
-80.800 2.0
-80.600 5.0
-80.400 6.0
-80.200 3.0
-80.000 2.0
-79.800 1.0
-79.600 2.0
-79.400 7.0
-79.200 0.0
-79.000 0.0
-78.800 4.0
-78.600 3.0
-78.400 3.0
-78.200 6.0
-78.000 3.0
-77.800 1.0
-77.600 4.0
-77.400 4.0
-77.200 4.0
-77.000 5.0
-76.800 2.0
-76.600 5.0
-76.400 2.0
-76.200 1.0
-76.000 5.0
-75.800 1.0
-75.600 4.0
-75.400 4.0
-75.200 2.0
-75.000 1.0
-74.800 5.0
-74.600 1.0
-74.400 2.0
-74.200 3.0
-74.000 6.0
-73.800 6.0
-73.600 3.0
-73.400 2.0
-73.200 3.0
-73.000 1.0
-72.800 3.0
-72.600 3.0
-72.400 1.0
-72.200 5.0
-72.000 4.0
-71.800 1.0
-71.600 5.0
-71.400 5.0
-71.200 1.0
-71.000 4.0
-70.800 2.0
-70.600 4.0
-70.400 5.0
-70.200 4.0
-70.000 4.0
-69.800 4.0
-69.600 6.0
-69.400 3.0
-69.200 3.0
-69.000 6.0
-68.800 7.0
-68.600 2.0
-68.400 4.0
-68.200 2.0
-68.000 2.0
-67.800 4.0
-67.600 4.0
-67.400 3.0
-67.200 5.0
-67.000 4.0
-66.800 3.0
-66.600 7.0
-66.400 2.0
-66.200 7.0
-66.000 8.0
-65.800 1.0
-65.600 2.0
-65.400 3.0
-65.200 2.0
-65.000 5.0
-64.800 3.0
-64.600 3.0
-64.400 2.0
-64.200 4.0
-64.000 4.0
-63.800 0.0
-63.600 1.0
-63.400 3.0
-63.200 3.0
-63.000 4.0
-62.800 1.0
-62.600 4.0
-62.400 2.0
-62.200 2.0
-62.000 0.0
-61.800 3.0
-61.600 2.0
-61.400 3.0
-61.200 3.0
-61.000 4.0
-60.800 2.0
-60.600 1.0
-60.400 2.0
-60.200 2.0
-60.000 2.0
-59.800 5.0
-59.600 2.0
-59.400 3.0
-59.200 2.0
-59.000 3.0
-58.800 3.0
-58.600 4.0
-58.400 6.0
-58.200 4.0
-58.000 4.0
-57.800 1.0
-57.600 4.0
-57.400 3.0
-57.200 2.0
-57.000 0.0
-56.800 0.0
-56.600 6.0
-56.400 2.0
-56.200 2.0
-56.000 4.0
-55.800 2.0
-55.600 1.0
-55.400 2.0
-55.200 2.0
-55.000 3.0
-54.800 2.0
-54.600 5.0
-54.400 4.0
-54.200 3.0
-54.000 0.0
-53.800 2.0
-53.600 0.0
-53.400 3.0
-53.200 0.0
-53.000 1.0
-52.800 1.0
-52.600 4.0
-52.400 5.0
-52.200 2.0
-52.000 3.0
-51.800 3.0
-51.600 4.0
-51.400 2.0
-51.200 1.0
-51.000 0.0
-50.800 3.0
-50.600 4.0
-50.400 5.0
-50.200 1.0
-50.000 5.0
-49.800 2.0
-49.600 3.0
-49.400 4.0
-49.200 1.0
-49.000 3.0
-48.800 3.0
-48.600 0.0
-48.400 3.0
-48.200 3.0
-48.000 2.0
-47.800 1.0
-47.600 3.0
-47.400 2.0
-47.200 4.0
-47.000 4.0
-46.800 4.0
-46.600 3.0
-46.400 1.0
-46.200 5.0
-46.000 2.0
-45.800 7.0
-45.600 3.0
-45.400 2.0
-45.200 4.0
-45.000 3.0
-44.800 2.0
-44.600 0.0
-44.400 1.0
-44.200 4.0
-44.000 3.0
-43.800 4.0
-43.600 6.0
-43.400 3.0
-43.200 3.0
-43.000 2.0
-42.800 5.0
-42.600 8.0
-42.400 23.0
-42.200 40.0
-42.000 15.0
-41.800 7.0
-41.600 3.0
-41.400 7.0
-41.200 3.0
-41.000 3.0
-40.800 3.0
-40.600 2.0
-40.400 1.0
-40.200 6.0
-40.000 4.0
-39.800 0.0
-39.600 4.0
-39.400 6.0
-39.200 4.0
-39.000 1.0
-38.800 5.0
-38.600 2.0
-38.400 2.0
-38.200 0.0
-38.000 5.0
-37.800 3.0
-37.600 2.0
-37.400 3.0
-37.200 0.0
-37.000 2.0
-36.800 2.0
-36.600 3.0
-36.400 4.0
-36.200 2.0
-36.000 2.0
-35.800 5.0
-35.600 3.0
-35.400 2.0
-35.200 7.0
-35.000 3.0
-34.800 4.0
-34.600 2.0
-34.400 1.0
-34.200 1.0
-34.000 4.0
-33.800 1.0
-33.600 1.0
-33.400 1.0
-33.200 6.0
-33.000 1.0
-32.800 2.0
-32.600 1.0
-32.400 2.0
-32.200 1.0
-32.000 3.0
-31.800 1.0
-31.600 2.0
-31.400 5.0
-31.200 2.0
-31.000 3.0
-30.800 3.0
-30.600 0.0
-30.400 4.0
-30.200 3.0
-30.000 1.0
-29.800 2.0
-29.600 3.0
-29.400 1.0
-29.200 3.0
-29.000 2.0
-28.800 1.0
-28.600 0.0
-28.400 3.0
-28.200 3.0
-28.000 1.0
-27.800 3.0
-27.600 4.0
-27.400 5.0
-27.200 2.0
-27.000 3.0
-26.800 1.0
-26.600 6.0
-26.400 2.0
-26.200 4.0
-26.000 3.0
-25.800 6.0
-25.600 2.0
-25.400 1.0
-25.200 1.0
-25.000 0.0
-24.800 1.0
-24.600 4.0
-24.400 3.0
-24.200 3.0
-24.000 2.0
-23.800 5.0
-23.600 1.0
-23.400 3.0
-23.200 2.0
-23.000 2.0
-22.800 3.0
-22.600 2.0
-22.400 3.0
-22.200 4.0
-22.000 2.0
-21.800 5.0
-21.600 3.0
-21.400 1.0
-21.200 6.0
-21.000 4.0
-20.800 4.0
-20.600 1.0
-20.400 3.0
-20.200 6.0
-20.000 4.0
-19.800 2.0
-19.600 4.0
-19.400 2.0
-19.200 1.0
-19.000 5.0
-18.800 2.0
-18.600 4.0
-18.400 1.0
-18.200 3.0
-18.000 4.0
-17.800 2.0
-17.600 5.0
-17.400 4.0
-17.200 3.0
-17.000 0.0
-16.800 4.0
-16.600 2.0
-16.400 0.0
-16.200 0.0
-16.000 4.0
-15.800 5.0
-15.600 4.0
-15.400 2.0
-15.200 2.0
-15.000 0.0
-14.800 4.0
-14.600 4.0
-14.400 5.0
-14.200 0.0
-14.000 3.0
-13.800 4.0
-13.600 3.0
-13.400 1.0
-13.200 1.0
-13.000 2.0
-12.800 4.0
-12.600 1.0
-12.400 4.0
-12.200 3.0
-12.000 3.0
-11.800 1.0
-11.600 0.0
-11.400 2.0
-11.200 2.0
-11.000 3.0
-10.800 3.0
-10.600 4.0
-10.400 1.0
-10.200 5.0
-10.000 6.0
-9.800 4.0
-9.600 3.0
-9.400 0.0
-9.200 2.0
-9.000 4.0
-8.800 3.0
-8.600 1.0
-8.400 0.0
-8.200 4.0
-8.000 9.0
-7.800 3.0
-7.600 6.0
-7.400 1.0
-7.200 2.0
-7.000 2.0
-6.800 5.0
-6.600 1.0
-6.400 2.0
-6.200 1.0
-6.000 2.0
-5.800 1.0
-5.600 2.0
-5.400 2.0
-5.200 2.0
-5.000 2.0
-4.800 2.0
-4.600 4.0
-4.400 2.0
-4.200 0.0
-4.000 4.0
-3.800 3.0
-3.600 4.0
-3.400 2.0
-3.200 6.0
-3.000 11.0
-2.800 5.0
-2.600 8.0
-2.400 8.0
-2.200 9.0
-2.000 9.0
-1.800 10.0
-1.600 13.0
-1.400 7.0
-1.200 10.0
-1.000 8.0
-0.800 12.0
-0.600 14.0
-0.400 13.0
-0.200 6.0
0.000 13.0
0.200 8.0
0.400 13.0
0.600 13.0
0.800 14.0
1.000 12.0
1.200 11.0
1.400 15.0
1.600 14.0
1.800 12.0
2.000 12.0
2.200 24.0
2.400 17.0
2.600 15.0
2.800 7.0
3.000 17.0
3.200 19.0
3.400 15.0
3.600 12.0
3.800 12.0
4.000 20.0
4.200 13.0
4.400 8.0
4.600 11.0
4.800 16.0
5.000 15.0
5.200 20.0
5.400 11.0
5.600 8.0
5.800 5.0
6.000 13.0
6.200 8.0
6.400 11.0
6.600 13.0
6.800 10.0
7.000 12.0
7.200 6.0
7.400 6.0
7.600 6.0
7.800 9.0
8.000 4.0
8.200 9.0
8.400 6.0
8.600 10.0
8.800 4.0
9.000 5.0
9.200 5.0
9.400 5.0
9.600 2.0
9.800 1.0
10.000 3.0
10.200 1.0
10.400 6.0
10.600 3.0
10.800 2.0
11.000 4.0
11.200 3.0
11.400 1.0
11.600 2.0
11.800 3.0
12.000 1.0
12.200 2.0
12.400 3.0
12.600 1.0
12.800 4.0
13.000 2.0
13.200 4.0
13.400 2.0
13.600 1.0
13.800 3.0
14.000 2.0
14.200 1.0
14.400 5.0
14.600 1.0
14.800 2.0
15.000 2.0
15.200 1.0
15.400 5.0
15.600 2.0
15.800 3.0
16.000 5.0
16.200 3.0
16.400 3.0
16.600 3.0
16.800 1.0
17.000 2.0
17.200 5.0
17.400 3.0
17.600 2.0
17.800 1.0
18.000 5.0
18.200 4.0
18.400 3.0
18.600 1.0
18.800 2.0
19.000 0.0
19.200 2.0
19.400 2.0
19.600 4.0
19.800 2.0
20.000 2.0
20.200 1.0
20.400 2.0
20.600 0.0
20.800 0.0
21.000 3.0
21.200 3.0
21.400 2.0
21.600 1.0
21.800 3.0
22.000 3.0
22.200 1.0
22.400 0.0
22.600 3.0
22.800 3.0
23.000 1.0
23.200 3.0
23.400 3.0
23.600 1.0
23.800 3.0
24.000 2.0
24.200 1.0
24.400 3.0
24.600 2.0
24.800 1.0
25.000 5.0
25.200 2.0
25.400 1.0
25.600 2.0
25.800 1.0
26.000 2.0
26.200 5.0
26.400 3.0
26.600 2.0
26.800 2.0
27.000 2.0
27.200 1.0
27.400 1.0
27.600 2.0
27.800 3.0
28.000 1.0
28.200 1.0
28.400 1.0
28.600 1.0
28.800 2.0
29.000 1.0
29.200 3.0
29.400 1.0
29.600 1.0
29.800 1.0
30.000 2.0
30.200 1.0
30.400 2.0
30.600 3.0
30.800 4.0
31.000 1.0
31.200 1.0
31.400 2.0
31.600 3.0
31.800 2.0
32.000 3.0
32.200 2.0
32.400 2.0
32.600 1.0
32.800 4.0
33.000 6.0
33.200 3.0
33.400 2.0
33.600 3.0
33.800 5.0
34.000 0.0
34.200 0.0
34.400 3.0
34.600 0.0
34.800 4.0
35.000 3.0
35.200 2.0
35.400 3.0
35.600 1.0
35.800 2.0
36.000 2.0
36.200 3.0
36.400 3.0
36.600 4.0
36.800 3.0
37.000 2.0
37.200 0.0
37.400 4.0
37.600 3.0
37.800 0.0
38.000 2.0
38.200 4.0
38.400 2.0
38.600 2.0
38.800 1.0
39.000 4.0
39.200 1.0
39.400 1.0
39.600 1.0
39.800 4.0
40.000 2.0
40.200 1.0
40.400 2.0
40.600 3.0
40.800 8.0
41.000 1.0
41.200 1.0
41.400 4.0
41.600 2.0
41.800 3.0
42.000 3.0
42.200 4.0
42.400 0.0
42.600 0.0
42.800 4.0
43.000 1.0
43.200 3.0
43.400 2.0
43.600 4.0
43.800 1.0
44.000 5.0
44.200 2.0
44.400 0.0
44.600 2.0
44.800 2.0
45.000 5.0
45.200 5.0
45.400 2.0
45.600 3.0
45.800 5.0
46.000 2.0
46.200 3.0
46.400 3.0
46.600 6.0
46.800 5.0
47.000 4.0
47.200 7.0
47.400 8.0
47.600 26.0
47.800 38.0
48.000 15.0
48.200 10.0
48.400 4.0
48.600 7.0
48.800 2.0
49.000 1.0
49.200 2.0
49.400 2.0
49.600 2.0
49.800 4.0
50.000 1.0
50.200 4.0
50.400 8.0
50.600 3.0
50.800 4.0
51.000 3.0
51.200 5.0
51.400 3.0
51.600 4.0
51.800 4.0
52.000 3.0
52.200 2.0
52.400 3.0
52.600 5.0
52.800 3.0
53.000 0.0
53.200 4.0
53.400 4.0
53.600 6.0
53.800 3.0
54.000 1.0
54.200 4.0
54.400 4.0
54.600 6.0
54.800 3.0
55.000 3.0
55.200 1.0
55.400 2.0
55.600 0.0
55.800 0.0
56.000 1.0
56.200 1.0
56.400 5.0
56.600 1.0
56.800 2.0
57.000 2.0
57.200 2.0
57.400 3.0
57.600 1.0
57.800 7.0
58.000 1.0
58.200 2.0
58.400 0.0
58.600 4.0
58.800 4.0
59.000 2.0
59.200 5.0
59.400 5.0
59.600 1.0
59.800 3.0
60.000 2.0
60.200 1.0
60.400 1.0
60.600 8.0
60.800 2.0
61.000 2.0
61.200 1.0
61.400 2.0
61.600 6.0
61.800 2.0
62.000 3.0
62.200 3.0
62.400 3.0
62.600 1.0
62.800 3.0
63.000 1.0
63.200 1.0
63.400 4.0
63.600 1.0
63.800 3.0
64.000 6.0
64.200 6.0
64.400 3.0
64.600 3.0
64.800 3.0
65.000 4.0
65.200 4.0
65.400 0.0
65.600 3.0
65.800 2.0
66.000 1.0
66.200 4.0
66.400 5.0
66.600 2.0
66.800 2.0
67.000 3.0
67.200 0.0
67.400 4.0
67.600 6.0
67.800 1.0
68.000 1.0
68.200 3.0
68.400 2.0
68.600 5.0
68.800 2.0
69.000 2.0
69.200 5.0
69.400 3.0
69.600 2.0
69.800 2.0
70.000 3.0
70.200 4.0
70.400 4.0
70.600 3.0
70.800 4.0
71.000 2.0
71.200 6.0
71.400 2.0
71.600 2.0
71.800 3.0
72.000 3.0
72.200 4.0
72.400 4.0
72.600 5.0
72.800 4.0
73.000 5.0
73.200 1.0
73.400 8.0
73.600 4.0
73.800 5.0
74.000 2.0
74.200 4.0
74.400 1.0
74.600 9.0
74.800 2.0
75.000 2.0
75.200 4.0
75.400 4.0
75.600 7.0
75.800 1.0
76.000 3.0
76.200 3.0
76.400 4.0
76.600 3.0
76.800 1.0
77.000 2.0
77.200 5.0
77.400 2.0
77.600 5.0
77.800 3.0
78.000 2.0
78.200 2.0
78.400 8.0
78.600 4.0
78.800 6.0
79.000 7.0
79.200 3.0
79.400 1.0
79.600 3.0
79.800 0.0
80.000 1.0
80.200 4.0
80.400 4.0
80.600 1.0
80.800 2.0
81.000 3.0
81.200 1.0
81.400 4.0
81.600 4.0
81.800 2.0
82.000 3.0
82.200 1.0
82.400 2.0
82.600 2.0
82.800 2.0
83.000 1.0
83.200 2.0
83.400 2.0
83.600 5.0
83.800 2.0
84.000 2.0
84.200 3.0
84.400 4.0
84.600 2.0
84.800 6.0
85.000 2.0
85.200 1.0
85.400 1.0
85.600 3.0
85.800 3.0
86.000 3.0
86.200 3.0
86.400 3.0
86.600 5.0
86.800 3.0
87.000 6.0
87.200 5.0
87.400 1.0
87.600 2.0
87.800 3.0
88.000 3.0
88.200 4.0
88.400 5.0
88.600 6.0
88.800 2.0
89.000 1.0
89.200 4.0
89.400 4.0
89.600 1.0
89.800 2.0